{"resourceType": "Bundle", "id": "09a01679-2564-0fb4-5129-aecc81ea2706", "meta": {"profile": ["https://fhir.nhs.uk/STU3/StructureDefinition/GPConnect-StructuredRecord-Bundle-1"]}, "type": "collection", "entry": [{"resource": {"resourceType": "Patient", "id": "2", "meta": {"versionId": "1521806400000", "profile": ["https://fhir.nhs.uk/STU3/StructureDefinition/CareConnect-GPC-Patient-1"]}, "extension": [{"url": "https://fhir.nhs.uk/STU3/StructureDefinition/Extension-CareConnect-GPC-RegistrationDetails-1", "extension": [{"url": "registrationPeriod", "valuePeriod": {"start": "1962-07-13T00:00:00+01:00"}}]}, {"url": "https://fhir.nhs.uk/STU3/StructureDefinition/Extension-CareConnect-GPC-NHSCommunication-1", "extension": [{"url": "language", "valueCodeableConcept": {"coding": [{"system": "https://fhir.nhs.uk/STU3/CodeSystem/CareConnect-HumanLanguage-1", "code": "en", "display": "English"}]}}, {"url": "preferred", "valueBoolean": false}, {"url": "modeOfCommunication", "valueCodeableConcept": {"coding": [{"system": "https://fhir.nhs.uk/STU3/CodeSystem/CareConnect-LanguageAbilityMode-1", "code": "RWR", "display": "Received written"}]}}, {"url": "communicationProficiency", "valueCodeableConcept": {"coding": [{"system": "https://fhir.nhs.uk/STU3/CodeSystem/CareConnect-LanguageAbilityProficiency-1", "code": "E", "display": "Excellent"}]}}, {"url": "interpreterRequired", "valueBoolean": false}]}], "identifier": [{"extension": [{"url": "https://fhir.nhs.uk/STU3/StructureDefinition/Extension-CareConnect-GPC-NHSNumberVerificationStatus-1", "valueCodeableConcept": {"coding": [{"system": "https://fhir.nhs.uk/STU3/CodeSystem/CareConnect-NHSNumberVerificationStatus-1", "code": "01", "display": "Number present and verified"}]}}], "system": "https://fhir.nhs.uk/Id/nhs-number", "value": "9690937286"}], "active": true, "name": [{"use": "official", "text": "Horace SKELLY", "family": "SKELLY", "given": ["Horace"], "prefix": ["MR"]}], "telecom": [{"system": "phone", "value": "01454587554", "use": "home"}, {"system": "phone", "value": "+447401254880", "use": "mobile"}], "gender": "male", "birthDate": "1925-04-21", "address": [{"use": "home", "type": "physical", "line": ["3 BOWESFIELD CRESCENT"], "city": "STOCKTON-ON-TEES", "postalCode": "TS18 3BL"}], "contact": [{"relationship": [{"text": "Emergency contact"}, {"text": "Next of kin"}, {"text": "Daughter"}], "name": {"use": "official", "text": "JACKSON Jane (Miss)", "family": "Jackson", "given": ["Jane"], "prefix": ["Miss"]}, "telecom": [{"system": "phone", "value": "07777123123", "use": "mobile"}], "address": {"use": "home", "type": "physical", "line": ["Trevelyan Square", "Boar Ln"], "postalCode": "LS1 6AE"}, "gender": "female"}], "generalPractitioner": [{"reference": "Practitioner/1"}], "managingOrganization": {"reference": "Organization/7"}}}, {"resource": {"resourceType": "AllergyIntolerance", "id": "29", "meta": {"profile": ["https://fhir.nhs.uk/STU3/StructureDefinition/CareConnect-GPC-AllergyIntolerance-1"]}, "identifier": [{"system": "https://fhir.nhs.uk/Id/cross-care-setting-identifier", "value": "76c144e6-817b-11ec-81e7-00505692d4aa"}], "clinicalStatus": "active", "verificationStatus": "unconfirmed", "category": ["environment"], "code": {"coding": [{"extension": [{"url": "https://fhir.hl7.org.uk/STU3/StructureDefinition/Extension-coding-sctdescid", "extension": [{"url": "descriptionId", "valueId": "148720012"}]}], "system": "http://snomed.info/sct", "code": "89707004", "display": "Sesame oil (substance)"}]}, "patient": {"reference": "Patient/2"}, "onsetDateTime": "1963-07-27T12:00:00+01:00", "assertedDate": "1963-07-27T12:00:00+01:00", "recorder": {"reference": "Practitioner/1"}, "reaction": [{"manifestation": [{"coding": [{"extension": [{"url": "https://fhir.hl7.org.uk/STU3/StructureDefinition/Extension-coding-sctdescid", "extension": [{"url": "descriptionId", "valueId": "344917018"}]}], "system": "http://snomed.info/sct", "code": "230145002", "display": "Difficulty breathing"}]}], "severity": "severe"}]}}, {"resource": {"resourceType": "List", "meta": {"profile": ["https://fhir.nhs.uk/STU3/StructureDefinition/CareConnect-GPC-List-1"]}, "status": "current", "mode": "snapshot", "title": "Allergies and adverse reactions", "code": {"coding": [{"system": "http://snomed.info/sct", "code": "886921000000105", "display": "Allergies and adverse reactions"}]}, "subject": {"identifier": {"system": "https://fhir.nhs.uk/Id/nhs-number", "value": "9690937286"}}, "entry": [{"item": {"reference": "AllergyIntolerance/29"}}]}}, {"resource": {"resourceType": "List", "meta": {"profile": ["https://fhir.nhs.uk/STU3/StructureDefinition/CareConnect-GPC-List-1"]}, "contained": [{"resourceType": "AllergyIntolerance", "id": "28", "meta": {"profile": ["https://fhir.nhs.uk/STU3/StructureDefinition/CareConnect-GPC-AllergyIntolerance-1"]}, "extension": [{"url": "https://fhir.nhs.uk/STU3/StructureDefinition/Extension-CareConnect-GPC-AllergyIntoleranceEnd-1", "extension": [{"url": "endDate", "valueDateTime": "2016-11-01T00:00:00+00:00"}, {"url": "reasonEnded", "valueString": "Desensitised to Peanuts"}]}], "identifier": [{"system": "https://fhir.nhs.uk/Id/cross-care-setting-identifier", "value": "76c1442b-817b-11ec-81e7-00505692d4aa"}], "clinicalStatus": "resolved", "verificationStatus": "unconfirmed", "category": ["environment"], "code": {"coding": [{"extension": [{"url": "https://fhir.hl7.org.uk/STU3/StructureDefinition/Extension-coding-sctdescid", "extension": [{"url": "descriptionId", "valueId": "152306018"}]}], "system": "http://snomed.info/sct", "code": "91935009", "display": "Allergy to peanuts"}, {"system": "http://read.info/ctv3", "code": "Xa1no", "display": "Peanut allergy", "userSelected": true}]}, "patient": {"reference": "Patient/2"}, "onsetDateTime": "1962-08-12T00:00:00+01:00", "assertedDate": "2016-11-01T00:00:00+00:00", "recorder": {"reference": "Practitioner/1"}, "lastOccurrence": "2016-11-01T00:00:00+00:00", "reaction": [{"manifestation": [{"coding": [{"extension": [{"url": "https://fhir.hl7.org.uk/STU3/StructureDefinition/Extension-coding-sctdescid", "extension": [{"url": "descriptionId", "valueId": "372285017"}]}], "system": "http://snomed.info/sct", "code": "249519007", "display": "Diarrhoea and vomiting"}]}], "severity": "mild"}]}], "status": "current", "mode": "snapshot", "title": "Ended allergies", "code": {"coding": [{"system": "http://snomed.info/sct", "code": "1103671000000101", "display": "Ended allergies"}]}, "subject": {"identifier": {"system": "https://fhir.nhs.uk/Id/nhs-number", "value": "9690937286"}}, "entry": [{"item": {"reference": "#28"}}]}}, {"resource": {"resourceType": "List", "meta": {"profile": ["https://fhir.nhs.uk/STU3/StructureDefinition/CareConnect-GPC-List-1"]}, "status": "current", "mode": "snapshot", "title": "Problems - linked problems not relating to the primary query", "code": {"coding": [{"system": "https://fhir.hl7.org.uk/STU3/CodeSystem/GPConnect-SecondaryListValues-1", "code": "problems-linked-problems-not-relating-to-the-primary-query", "display": "Problems - linked problems not relating to the primary query"}]}, "subject": {"reference": "Patient/2"}, "date": "2020-12-01T00:00:00+00:00", "orderedBy": {"coding": [{"system": "http://hl7.org/fhir/list-order", "code": "event-date"}]}, "entry": [{"item": {"reference": "Condition/AllergiesProblem"}}]}}, {"resource": {"resourceType": "Condition", "id": "AllergiesProblem", "meta": {"profile": ["https://fhir.nhs.uk/STU3/StructureDefinition/CareConnect-GPC-ProblemHeader-Condition-1"]}, "extension": [{"url": "https://fhir.hl7.org.uk/STU3/StructureDefinition/Extension-CareConnect-ProblemSignificance-1", "valueCode": "major"}, {"url": "https://fhir.hl7.org.uk/STU3/StructureDefinition/Extension-CareConnect-RelatedClinicalContent-1", "valueReference": {"reference": "AllergyIntolerance/29"}}], "identifier": [{"system": "https://fhir.nhs.uk/Id/cross-care-setting-identifier", "value": "D06C0517-4D1C-11E3-A2DD-010000000161"}], "clinicalStatus": "active", "category": [{"coding": [{"system": "http://hl7.org/fhir/condition-category", "code": "problem-list-item", "display": "Problem List Item"}]}], "code": {"coding": [{"system": "http://snomed.info/sct", "code": "231504006", "display": "Mixed anxiety and depressive disorder"}], "text": "Anxiety with depression"}, "subject": {"reference": "Patient/2"}, "assertedDate": "2020-12-01T00:00:00+00:00", "asserter": {"reference": "Practitioner/1"}}}, {"resource": {"resourceType": "Practitioner", "id": "1", "meta": {"versionId": "1469444400000", "lastUpdated": "2016-07-25T12:00:00.000+01:00", "profile": ["https://fhir.nhs.uk/STU3/StructureDefinition/CareConnect-GPC-Practitioner-1"]}, "extension": [{"url": "https://fhir.nhs.uk/STU3/StructureDefinition/Extension-CareConnect-GPC-NHSCommunication-1", "extension": [{"url": "language", "valueCodeableConcept": {"coding": [{"system": "https://fhir.nhs.uk/STU3/CodeSystem/CareConnect-HumanLanguage-1", "code": "de", "display": "German"}]}}]}, {"url": "https://fhir.nhs.uk/STU3/StructureDefinition/Extension-CareConnect-GPC-NHSCommunication-1", "extension": [{"url": "language", "valueCodeableConcept": {"coding": [{"system": "https://fhir.nhs.uk/STU3/CodeSystem/CareConnect-HumanLanguage-1", "code": "en", "display": "English"}]}}]}], "identifier": [{"system": "https://fhir.nhs.uk/Id/sds-user-id", "value": "G13579135"}], "name": [{"use": "usual", "family": "Gilbert", "given": ["Nichole"], "prefix": ["Miss"]}], "gender": "female"}}, {"resource": {"resourceType": "Organization", "id": "7", "meta": {"versionId": "1469444400000", "lastUpdated": "2016-07-25T12:00:00.000+01:00", "profile": ["https://fhir.nhs.uk/STU3/StructureDefinition/CareConnect-GPC-Organization-1"]}, "identifier": [{"system": "https://fhir.nhs.uk/Id/ods-organization-code", "value": "B82617"}], "name": "COXWOLD SURGERY", "telecom": [{"system": "phone", "value": "12345678", "use": "work"}], "address": [{"use": "work", "line": ["NHS NPFIT Test Data Manager", "Princes Exchange"], "city": "Leeds", "district": "West Yorkshire", "postalCode": "LS1 4HY"}]}}]}